Folder: ml-report-cv-polynomial-regression/latex

File: description.csv
,Cement (component 1)(kg in a m^3 mixture),Blast Furnace Slag (component 2)(kg in a m^3 mixture),Fly Ash (component 3)(kg in a m^3 mixture),Water  (component 4)(kg in a m^3 mixture),Superplasticizer (component 5)(kg in a m^3 mixture),Coarse Aggregate  (component 6)(kg in a m^3 mixture),Fine Aggregate (component 7)(kg in a m^3 mixture),Age (day),"Concrete compressive strength(MPa, megapascals) "
count,1030.0,1030.0,1030.0,1030.0,1030.0,1030.0,1030.0,1030.0,1030.0
mean,281.166,73.8955,54.1871,181.566,6.20311,972.919,773.579,45.6621,35.8178
std,104.507,86.2791,63.9965,21.3556,5.97349,77.7538,80.1754,63.1699,16.7057
min,102.0,0.0,0.0,121.75,0.0,801.0,594.0,1.0,2.33181
25%,192.375,0.0,0.0,164.9,0.0,932.0,730.95,7.0,23.7071
50%,272.9,22.0,0.0,185.0,6.35,968.0,779.51,28.0,34.4428
75%,350.0,142.95,118.27,192.0,10.16,1029.4,824.0,56.0,46.1363
max,540.0,359.4,200.1,247.0,32.2,1145.0,992.6,365.0,82.5992